{
  "resourceType": "CareTeam",
  "id": "example",
  "text": {
    "status": "generated",
    "div": "<div xmlns=\"http://www.w3.org/1999/xhtml\">Care Team</div>"
  },
  "contained": [
    {
      "resourceType": "Practitioner",
      "id": "pr1",
      "name": [
        {
          "family": "Dietician",
          "given": [
            "Dorothy"
          ]
        }
      ]
    }
  ],
  "identifier": [
    {
      "value": "12345"
    }
  ],
  "status": "active",
  "category": [
    {
      "coding": [
        {
          "system": "http://loinc.org",
          "code": "LA27976-2",
          "display": "Encounter-focused care team"
        }
      ]
    }
  ],
  "name": "Peter James Charlmers Care Team for Inpatient Encounter",
  "subject": {
    "reference": "Patient/example",
    "display": "Peter James Chalmers"
  },
  "period": {
    "end": "2013-01-01"
  },
  "participant": [
    {
      "role": {
        "text": "responsiblePerson"
      },
      "member": {
        "reference": "Patient/example",
        "display": "Peter James Chalmers"
      }
    },
    {
      "role": {
        "text": "adviser"
      },
      "member": {
        "reference": "#pr1",
        "display": "Dorothy Dietition"
      },
      "onBehalfOf": {
        "reference": "Organization/f001"
      },
      "coverageTiming": {
        "repeat": {
          "boundsPeriod": {
            "start": "2010-12-23",
            "end": "2013-01-01"
          },
          "frequency": 1,
          "period": 1,
          "periodUnit": "d",
          "dayOfWeek": [
            "mon"
          ],
          "when": [
            "MORN"
          ]
        }
      }
    }
  ],
  "managingOrganization": [
    {
      "reference": "Organization/f001"
    }
  ]
}