{
  "resourceType": "CarePlan",
  "id": "f003",
  "text": {
    "status": "generated",
    "div": "<div xmlns=\"http://www.w3.org/1999/xhtml\"><p><b>Generated Narrative</b></p><p><b>identifier</b>: id: CP3953 (OFFICIAL)</p><p><b>status</b>: completed</p><p><b>intent</b>: plan</p><p><b>subject</b>: <a>P. van de Heuvel. Generated Summary: id: 738472983 (USUAL), id: ?ngen-9? (USUAL); active; Pieter van de Heuvel ; Phone: 0648352638, p.heuvel@gmail.com; gender: male; birthDate: 1944-11-17; <span>Getrouwd</span>; multipleBirth</a></p><p><b>period</b>: 8 Mar. 2013, 7:00:10 pm --&gt; 8 Mar. 2013, 7:30:10 pm</p><p><b>careTeam</b>: <a> </a></p><blockquote><h3>Participants</h3><table><tr><td>-</td><td><b>Member</b></td></tr><tr><td>*</td><td><a>E.M. van den broek. Generated Summary: id: 938273695 (OFFICIAL), id: 129IDH4OP733 (USUAL); Eric van den broek (OFFICIAL); Phone: 0205568263, E.M.vandenbroek@bmc.nl, Fax: 0205664440; gender: male; birthDate: 1975-12-07</a></td></tr></table></blockquote><p><b>addresses</b>: <a>?????. Generated Summary: id: 12345; <span>Resolved</span>; <span>Confirmed</span>; <span>Problem</span>; <span>Mild</span>; <span>Fever</span>; <span>Entire body as a whole</span>; onset: 2013-04-02; abatement: around April 9, 2013; recordedDate: 2013-04-04</a></p><p><b>goal</b>: <a> </a></p><blockquote><p><b>lifecycleStatus</b>: completed</p><p><b>achievementStatus</b>: <span>Achieved</span></p><p><b>description</b>: <span>Retropharyngeal abscess removal</span></p><p><b>subject</b>: <a>P. van de Heuvel. Generated Summary: id: 738472983 (USUAL), id: ?ngen-9? (USUAL); active; Pieter van de Heuvel ; Phone: 0648352638, p.heuvel@gmail.com; gender: male; birthDate: 1944-11-17; <span>Getrouwd</span>; multipleBirth</a></p><p><b>note</b>: goal accomplished without complications</p></blockquote><blockquote><p><b>activity</b></p><h3>Details</h3><table><tr><td>-</td><td><b>Kind</b></td><td><b>Code</b></td><td><b>Status</b></td><td><b>DoNotPerform</b></td><td><b>Scheduled[x]</b></td><td><b>Performer</b></td></tr><tr><td>*</td><td>ServiceRequest</td><td><span>Incision of retropharyngeal abscess</span></td><td>completed</td><td>true</td><td>2011-06-27T09:30:10+01:00</td><td><a>E.M. van den broek. Generated Summary: id: 938273695 (OFFICIAL), id: 129IDH4OP733 (USUAL); Eric van den broek (OFFICIAL); Phone: 0205568263, E.M.vandenbroek@bmc.nl, Fax: 0205664440; gender: male; birthDate: 1975-12-07</a></td></tr></table></blockquote></div>"
  },
  "contained": [
    {
      "resourceType": "CareTeam",
      "id": "careteam",
      "participant": [
        {
          "member": {
            "reference": "Practitioner/f001",
            "display": "E.M. van den broek"
          }
        }
      ]
    },
    {
      "resourceType": "Goal",
      "id": "goal",
      "lifecycleStatus": "completed",
      "achievementStatus": {
        "coding": [
          {
            "system": "http://terminology.hl7.org/CodeSystem/goal-achievement",
            "code": "achieved",
            "display": "Achieved"
          }
        ],
        "text": "Achieved"
      },
      "description": {
        "text": "Retropharyngeal abscess removal"
      },
      "subject": {
        "reference": "Patient/f001",
        "display": "P. van de Heuvel"
      },
      "note": [
        {
          "text": "goal accomplished without complications"
        }
      ]
    }
  ],
  "identifier": [
    {
      "use": "official",
      "system": "http://www.bmc.nl/zorgportal/identifiers/careplans",
      "value": "CP3953"
    }
  ],
  "status": "completed",
  "intent": "plan",
  "subject": {
    "reference": "Patient/f001",
    "display": "P. van de Heuvel"
  },
  "period": {
    "start": "2013-03-08T09:00:10+01:00",
    "end": "2013-03-08T09:30:10+01:00"
  },
  "careTeam": [
    {
      "reference": "#careteam"
    }
  ],
  "addresses": [
    {
      "reference": "Condition/f201",
      "display": "?????"
    }
  ],
  "goal": [
    {
      "reference": "#goal"
    }
  ],
  "activity": [
    {
      "detail": {
        "kind": "ServiceRequest",
        "code": {
          "coding": [
            {
              "system": "http://snomed.info/sct",
              "code": "172960003",
              "display": "Incision of retropharyngeal abscess"
            }
          ]
        },
        "status": "completed",
        "doNotPerform": true,
        "scheduledString": "2011-06-27T09:30:10+01:00",
        "performer": [
          {
            "reference": "Practitioner/f001",
            "display": "E.M. van den broek"
          }
        ]
      }
    }
  ]
}