{
  "resourceType": "CarePlan",
  "id": "f201",
  "text": {
    "status": "generated",
    "div": "<div xmlns=\"http://www.w3.org/1999/xhtml\"><p><b>Generated Narrative</b></p><p><b>id</b>: f201</p><p><b>status</b>: draft</p><p><b>intent</b>: proposal</p><p><b>subject</b>: <a>Roel. Generated Summary: id: f201; BSN: 123456789 (OFFICIAL), BSN: 123456789 (OFFICIAL); active; Roel(OFFICIAL); ph: +31612345678(MOBILE), ph: +31201234567(HOME); gender: male; birthDate: 1960-03-13; <span>Legally married</span>; </a></p><p><b>period</b>: 2013-03-11 --&gt; 2013-03-13</p><p><b>careTeam</b>: <a> </a></p><blockquote><p><b>id</b>: careteam</p><blockquote><p><b>participant</b></p><p><b>role</b>: <span>Review of care plan</span></p><p><b>member</b>: <a>Dokter Bronsig. Generated Summary: id: f201; UZI-nummer: 12345678901 (OFFICIAL); active; Dokter Bronsig(OFFICIAL); ph: +31715269111(WORK); gender: male; birthDate: 1956-12-24</a></p></blockquote><blockquote><p><b>participant</b></p><p><b>role</b>: <span>Carer</span></p><p><b>member</b>: <a>Nurse Carla Espinosa. Generated Summary: id: f204; UZI-nummer: 12345678904 (OFFICIAL); Carla Espinosa; ph: +31715262169(WORK); gender: female; birthDate: 1967-11-05</a></p></blockquote></blockquote><p><b>addresses</b>: </p><p><b>goal</b>: <a> </a></p><blockquote><p><b>id</b>: goal</p><p><b>lifecycleStatus</b>: completed</p><p><b>achievementStatus</b>: <span>Achieved</span></p><p><b>description</b>: <span>Re-established renal function with at least healthy nutrients.</span></p><p><b>subject</b>: <a>Roel. Generated Summary: id: f201; BSN: 123456789 (OFFICIAL), BSN: 123456789 (OFFICIAL); active; Roel(OFFICIAL); ph: +31612345678(MOBILE), ph: +31201234567(HOME); gender: male; birthDate: 1960-03-13; <span>Legally married</span>; </a></p></blockquote><blockquote><p><b>activity</b></p><h3>Details</h3><table><tr><td>-</td><td><b>Kind</b></td><td><b>Code</b></td><td><b>Status</b></td><td><b>DoNotPerform</b></td><td><b>Scheduled[x]</b></td><td><b>Product[x]</b></td><td><b>DailyAmount</b></td></tr><tr><td>*</td><td>NutritionOrder</td><td><span>Potassium supplementation</span></td><td>completed</td><td>false</td><td>daily</td><td><a>Potassium. Generated Summary: id: f203; id: 1234; <span>Chemical</span>; <span>Potassium</span></a></td><td>80 mmol</td></tr></table></blockquote><blockquote><p><b>activity</b></p><h3>Details</h3><table><tr><td>-</td><td><b>Kind</b></td><td><b>Code</b></td><td><b>Status</b></td><td><b>DoNotPerform</b></td></tr><tr><td>*</td><td>ServiceRequest</td><td><span>Echography of kidney</span></td><td>completed</td><td>false</td></tr></table></blockquote></div>"
  },
  "contained": [
    {
      "resourceType": "CareTeam",
      "id": "careteam",
      "participant": [
        {
          "role": {
            "coding": [
              {
                "system": "http://snomed.info/sct",
                "code": "425268008",
                "display": "Review of care plan"
              }
            ]
          },
          "member": {
            "reference": "Practitioner/f201",
            "display": "Dokter Bronsig"
          }
        },
        {
          "role": {
            "coding": [
              {
                "system": "http://snomed.info/sct",
                "code": "229774002",
                "display": "Carer"
              }
            ]
          },
          "member": {
            "reference": "Practitioner/f204",
            "display": "Nurse Carla Espinosa"
          }
        }
      ]
    },
    {
      "resourceType": "Goal",
      "id": "goal",
      "lifecycleStatus": "completed",
      "achievementStatus": {
        "coding": [
          {
            "system": "http://terminology.hl7.org/CodeSystem/goal-achievement",
            "code": "achieved",
            "display": "Achieved"
          }
        ],
        "text": "Achieved"
      },
      "description": {
        "text": "Re-established renal function with at least healthy nutrients."
      },
      "subject": {
        "reference": "Patient/f201",
        "display": "Roel"
      }
    }
  ],
  "status": "draft",
  "intent": "proposal",
  "subject": {
    "reference": "Patient/f201",
    "display": "Roel"
  },
  "period": {
    "start": "2013-03-11",
    "end": "2013-03-13"
  },
  "careTeam": [
    {
      "reference": "#careteam"
    }
  ],
  "addresses": [
    {
      "reference": {
        "reference": "Condition/f204",
        "display": "Roel's renal insufficiency"
      }
    }
  ],
  "goal": [
    {
      "reference": "#goal"
    }
  ],
  "activity": [
    {
      "detail": {
        "kind": "NutritionOrder",
        "code": {
          "coding": [
            {
              "system": "http://snomed.info/sct",
              "code": "284093001",
              "display": "Potassium supplementation"
            }
          ]
        },
        "status": "completed",
        "doNotPerform": false,
        "scheduledString": "daily",
        "productReference": {
          "reference": "Substance/f203",
          "display": "Potassium"
        },
        "dailyAmount": {
          "value": 80,
          "unit": "mmol",
          "system": "http://snomed.info/sct",
          "code": "258718000"
        }
      }
    },
    {
      "detail": {
        "kind": "ServiceRequest",
        "code": {
          "coding": [
            {
              "system": "http://snomed.info/sct",
              "code": "306005",
              "display": "Echography of kidney"
            }
          ]
        },
        "status": "completed",
        "doNotPerform": false
      }
    }
  ]
}