{
  "resourceType": "DocumentReference",
  "id": "example",
  "text": {
    "status": "generated",
    "div": "<div xmlns=\"http://www.w3.org/1999/xhtml\"><p><b>Generated Narrative</b></p><p><b>id</b>: example</p><p><b>identifier</b>: id: urn:oid:1.3.6.1.4.1.21367.2005.3.7.1234</p><p><b>status</b>: current</p><p><b>docStatus</b>: preliminary</p><p><b>type</b>: <span>Outpatient Note</span></p><p><b>category</b>: <span>History and Physical</span></p><p><b>subject</b>: <a>Generated Summary: id: xcda; Medical record number: 12345 (USUAL); active; Henry Levin ; gender: male; birthDate: 1932-09-24</a></p><p><b>encounter</b>: <a>Generated Summary: id: xcda; id: 1234213.52345873 (OFFICIAL); status: completed; <span>ambulatory</span>; <span>Arm</span></a></p><p><b>event</b>: <span>Arm</span></p><p><b>facilityType</b>: <span>Outpatient</span></p><p><b>practiceSetting</b>: <span>General Medicine</span></p><p><b>period</b>: 23/12/2004 8:00:00 AM --&gt; 23/12/2004 8:01:00 AM</p><p><b>date</b>: 24/12/2005 9:43:41 AM</p><p><b>author</b>: </p><ul><li><a>Generated Summary: id: xcda1; id: D234123 (OFFICIAL); Sherry Dopplemeyer ; john.doe@healthcare.example.org</a></li><li><a> </a></li></ul><blockquote><p><b>id</b>: a2</p><p><b>name</b>: Gerald Smitty </p></blockquote><h3>Attesters</h3><table><tr><td>-</td><td><b>Mode</b></td><td><b>Party</b></td></tr><tr><td>*</td><td>official</td><td><a>Generated Summary: id: f001; id: 91654 (OFFICIAL), id: 17-0112278 (USUAL); <span>University Medical Hospital</span>; name: Burgers University Medical Center; ph: 022-655 2300(WORK)</a></td></tr></table><p><b>custodian</b>: <a>Generated Summary: id: f001; id: 91654 (OFFICIAL), id: 17-0112278 (USUAL); <span>University Medical Hospital</span>; name: Burgers University Medical Center; ph: 022-655 2300(WORK)</a></p><h3>RelatesTos</h3><table><tr><td>-</td><td><b>Code</b></td><td><b>Target</b></td></tr><tr><td>*</td><td>appends</td><td><a>Generated Summary: id: example; id: urn:oid:1.3.6.1.4.1.21367.2005.3.7.1234; status: current; docStatus: preliminary; <span>Outpatient Note</span>; <span>History and Physical</span>; <span>Arm</span>; <span>Outpatient</span>; <span>General Medicine</span>; period: 23/12/2004 8:00:00 AM --&gt; 23/12/2004 8:01:00 AM; date: 24/12/2005 9:43:41 AM; description: Physical; <span>very restricted</span></a></td></tr></table><p><b>description</b>: Physical</p><p><b>securityLabel</b>: <span>very restricted</span></p><h3>Contents</h3><table><tr><td>-</td><td><b>Attachment</b></td><td><b>Format</b></td><td><b>Identifier</b></td></tr><tr><td>*</td><td/><td><span>History and Physical Specification</span></td><td>id: urn:oid:1.3.6.1.4.1.21367.2005.3.7</td></tr></table><p><b>sourcePatientInfo</b>: <a>Generated Summary: id: xcda; Medical record number: 12345 (USUAL); active; Henry Levin ; gender: male; birthDate: 1932-09-24</a></p><p><b>related</b>: <a>Generated Summary: id: xcda; Medical record number: 12345 (USUAL); active; Henry Levin ; gender: male; birthDate: 1932-09-24</a></p></div>"
  },
  "contained": [
    {
      "resourceType": "Practitioner",
      "id": "a2",
      "name": [
        {
          "family": "Smitty",
          "given": [
            "Gerald"
          ]
        }
      ]
    }
  ],
  "identifier": [
    {
      "system": "urn:ietf:rfc:3986",
      "value": "urn:oid:1.3.6.1.4.1.21367.2005.3.7.1234"
    }
  ],
  "status": "current",
  "docStatus": "preliminary",
  "type": {
    "coding": [
      {
        "system": "http://loinc.org",
        "code": "34108-1",
        "display": "Outpatient Note"
      }
    ]
  },
  "category": [
    {
      "coding": [
        {
          "system": "http://ihe.net/xds/connectathon/classCodes",
          "code": "History and Physical",
          "display": "History and Physical"
        }
      ]
    }
  ],
  "subject": {
    "reference": "Patient/xcda"
  },
  "encounter": [
    {
      "reference": "Encounter/xcda"
    }
  ],
  "event": [
    {
      "coding": [
        {
          "system": "http://ihe.net/xds/connectathon/eventCodes",
          "code": "T-D8200",
          "display": "Arm"
        }
      ]
    }
  ],
  "facilityType": {
    "coding": [
      {
        "system": "http://www.ihe.net/xds/connectathon/healthcareFacilityTypeCodes",
        "code": "Outpatient",
        "display": "Outpatient"
      }
    ]
  },
  "practiceSetting": {
    "coding": [
      {
        "system": "http://www.ihe.net/xds/connectathon/practiceSettingCodes",
        "code": "General Medicine",
        "display": "General Medicine"
      }
    ]
  },
  "period": {
    "start": "2004-12-23T08:00:00+11:00",
    "end": "2004-12-23T08:01:00+11:00"
  },
  "date": "2005-12-24T09:43:41+11:00",
  "author": [
    {
      "reference": "Practitioner/xcda1"
    },
    {
      "reference": "#a2"
    }
  ],
  "attester": [
    {
      "mode": "official",
      "party": {
        "reference": "Organization/f001"
      }
    }
  ],
  "custodian": {
    "reference": "Organization/f001"
  },
  "relatesTo": [
    {
      "code": "appends",
      "target": {
        "reference": "DocumentReference/example"
      }
    }
  ],
  "description": "Physical",
  "securityLabel": [
    {
      "coding": [
        {
          "system": "http://terminology.hl7.org/CodeSystem/v3-Confidentiality",
          "code": "V",
          "display": "very restricted"
        }
      ]
    }
  ],
  "content": [
    {
      "attachment": {
        "contentType": "application/hl7-v3+xml",
        "language": "en-US",
        "url": "http://example.org/xds/mhd/Binary/07a6483f-732b-461e-86b6-edb665c45510",
        "size": "3654",
        "hash": "2jmj7l5rSw0yVb/vlWAYkK/YBwk=",
        "title": "Physical",
        "creation": "2005-12-24T09:35:00+11:00"
      },
      "format": {
        "system": "urn:oid:1.3.6.1.4.1.19376.1.2.3",
        "code": "urn:ihe:pcc:handp:2008",
        "display": "History and Physical Specification"
      },
      "identifier": {
        "system": "urn:ietf:rfc:3986",
        "value": "urn:oid:1.3.6.1.4.1.21367.2005.3.7"
      }
    }
  ],
  "sourcePatientInfo": {
    "reference": "Patient/xcda"
  },
  "related": [
    {
      "reference": "Patient/xcda",
      "identifier": {
        "system": "urn:ietf:rfc:3986",
        "value": "urn:oid:1.3.6.1.4.1.21367.2005.3.7.2345"
      }
    }
  ]
}